word,color,congruent,corrans,trials.thisRepN,trials.thisTrialN,trials.thisN,trials.thisIndex,inverse1.thisRepN,inverse1.thisTrialN,inverse1.thisN,inverse1.thisIndex,conven1.thisRepN,conven1.thisTrialN,conven1.thisN,conven1.thisIndex,intro_text.started,intro_text.stopped,key_resp_3.keys,key_resp_3.rt,key_resp_3.started,key_resp_3.stopped,text.started,text.stopped,key_resp_2.keys,key_resp_2.rt,key_resp_2.started,key_resp_2.stopped,ready_text.started,ready_text.stopped,key_resp_4.keys,key_resp_4.rt,key_resp_4.started,key_resp_4.stopped,ISI.started,ISI.stopped,trial_text.started,trial_text.stopped,resp.keys,resp.corr,resp.rt,resp.started,resp.stopped,fixationtrial.started,fixationtrial.stopped,trial_display.started,trial_display.stopped,rest_text.started,rest_text.stopped,key_resp_8.keys,key_resp_8.started,key_resp_8.stopped,rest_beep_start.started,rest_beep_start.stopped,rest_beep_end.started,rest_beep_end.stopped,rest_display.started,rest_display.stopped,text_2.started,text_2.stopped,fixationmain.started,fixationmain.stopped,key_resp_7.keys,key_resp_7.corr,key_resp_7.rt,key_resp_7.started,key_resp_7.stopped,task_display.started,task_display.stopped,session,participant,date,expName,psychopyVersion,frameRate,
,,,,,,,,,,,,,,,,23.947408899999573,None,space,7.1401707000040915,24.946631399994658,None,,,,,,,,,,,,,,,,,,,,,,,,,,,,,,,,,,,,,,,,,,,,,,,,001,1488,2019_Oct_14_1450,stroop short,3.1.5,60.23443240966173,
,,,,,,,,,,,,,,,,,,,,,,32.11280219999753,None,space,26.69053530000383,33.12955679999868,None,,,,,,,,,,,,,,,,,,,,,,,,,,,,,,,,,,,,,,,,,,001,1488,2019_Oct_14_1450,stroop short,3.1.5,60.23443240966173,
,,,,,,,,,,,,,,,,,,,,,,,,,,,,59.84627869999531,None,space,21.46370790000219,60.86269899999752,None,,,,,,,,,,,,,,,,,,,,,,,,,,,,,,,,,,,,001,1488,2019_Oct_14_1450,stroop short,3.1.5,60.23443240966173,
VÀNG,YELLOW,1,up,0,0,0,7,,,,,,,,,,,,,,,,,,,,,,,,,,,0.15786730000399984,None,83.19603839999763,84.47997629999736,up,1,0.8921410999973887,83.19603839999763,None,82.53510709999682,83.17943009999726,82.53510709999682,None,,,,,,,,,,,,,,,,,,,,,,,001,1488,2019_Oct_14_1450,stroop short,3.1.5,60.23443240966173,
ĐỎ,GREEN,1,left,0,1,1,1,,,,,,,,,,,,,,,,,,,,,,,,,,,0.005612599998130463,None,86.17954489999829,87.46248699999705,left,1,0.9639840000018012,86.17954489999829,None,85.36331329999666,86.16277080000145,85.36331329999666,None,,,,,,,,,,,,,,,,,,,,,,,001,1488,2019_Oct_14_1450,stroop short,3.1.5,60.23443240966173,
XANH DƯƠNG,BLUE,1,down,0,2,2,2,,,,,,,,,,,,,,,,,,,,,,,,,,,0.011428200006776024,None,89.17924769999809,90.4625664999985,down,1,0.7800520000018878,89.17924769999809,None,88.36843170000066,89.1626660999973,88.36843170000066,None,,,,,,,,,,,,,,,,,,,,,,,001,1488,2019_Oct_14_1450,stroop short,3.1.5,60.23443240966173,
ĐỎ,RED,1,left,0,3,3,5,,,,,,,,,,,,,,,,,,,,,,,,,,,0.002363700004934799,None,92.17934360000072,93.46275929999683,left,1,0.5135003999967012,92.17934360000072,None,91.36261820000072,92.16276980000112,91.36261820000072,None,,,,,,,,,,,,,,,,,,,,,,,001,1488,2019_Oct_14_1450,stroop short,3.1.5,60.23443240966173,
XANH LÁ,GREEN,1,right,0,4,4,4,,,,,,,,,,,,,,,,,,,,,,,,,,,0.008039499996812083,None,95.17902859999595,96.46287930000108,up,0,0.3040123000027961,95.17902859999595,None,94.36522390000027,95.1625200999988,94.36522390000027,None,,,,,,,,,,,,,,,,,,,,,,,001,1488,2019_Oct_14_1450,stroop short,3.1.5,60.23443240966173,
ĐỎ,RED,1,left,0,5,5,0,,,,,,,,,,,,,,,,,,,,,,,,,,,0.0023674999974900857,None,98.1791946999947,99.46259160000045,left,1,0.5129181000011158,98.1791946999947,None,97.36266790000082,98.16265089999797,97.36266790000082,None,,,,,,,,,,,,,,,,,,,,,,,001,1488,2019_Oct_14_1450,stroop short,3.1.5,60.23443240966173,
ĐỎ,RED,1,left,0,6,6,8,,,,,,,,,,,,,,,,,,,,,,,,,,,0.00033480000274721533,None,101.17996760000096,102.46259429999918,left,1,0.5085881000049994,101.17996760000096,None,100.36260529999709,101.16259149999678,100.36260529999709,None,,,,,,,,,,,,,,,,,,,,,,,001,1488,2019_Oct_14_1450,stroop short,3.1.5,60.23443240966173,
VÀNG,YELLOW,1,up,0,7,7,3,,,,,,,,,,,,,,,,,,,,,,,,,,,0.0030061999932513572,None,104.17961709999508,105.46274889999768,up,1,1.4337845999980345,104.17961709999508,None,103.36269289999473,104.16281449999951,103.36269289999473,None,,,,,,,,,,,,,,,,,,,,,,,001,1488,2019_Oct_14_1450,stroop short,3.1.5,60.23443240966173,
XANH DƯƠNG,BLUE,1,down,0,8,8,9,,,,,,,,,,,,,,,,,,,,,,,,,,,0.005299000004015397,None,107.1797316000011,108.46273519999522,left,0,0.6666337999995449,107.1797316000011,None,106.3628263999999,107.16243849999591,106.3628263999999,None,,,,,,,,,,,,,,,,,,,,,,,001,1488,2019_Oct_14_1450,stroop short,3.1.5,60.23443240966173,
VÀNG,BLUE,1,up,0,9,9,6,,,,,,,,,,,,,,,,,,,,,,,,,,,0.0031180999940261245,None,110.17919199999596,111.4628259999954,up,1,1.2224256999979843,110.17919199999596,None,109.36278070000117,110.16313939999964,109.36278070000117,None,,,,,,,,,,,,,,,,,,,,,,,001,1488,2019_Oct_14_1450,stroop short,3.1.5,60.23443240966173,
,,,,,,,,,,,,,,,,,,,,,,,,,,,,,,,,,,,,,,,,,,,,,,,112.38540469999862,None,None,112.38540469999862,117.36242109999876,,,,,,,,,,,,,,,,,,001,1488,2019_Oct_14_1450,stroop short,3.1.5,60.23443240966173,
XANH DƯƠNG,GREEN,1,down,,,,,0,0,0,3,,,,,,,,,,,,,,,,,,,,,,,,,,,,,,,,,,,,,,,,,112.38540469999862,113.36253790000046,141.3792353999961,None,112.38540469999862,None,143.1794344999944,144.46281829999498,142.39821739999752,143.1626885000005,right,0,1.090866200000164,143.1794344999944,None,142.39821739999752,None,001,1488,2019_Oct_14_1450,stroop short,3.1.5,60.23443240966173,
ĐỎ,YELLOW,0,left,,,,,0,1,1,2,,,,,,,,,,,,,,,,,,,,,,,,,,,,,,,,,,,,,,,,,,,,,,,146.17947699999786,147.46248059999925,145.36283790000016,146.16255299999466,left,1,0.5033620000031078,146.17947699999786,None,145.36283790000016,None,001,1488,2019_Oct_14_1450,stroop short,3.1.5,60.23443240966173,
VÀNG,RED,0,up,,,,,0,2,2,4,,,,,,,,,,,,,,,,,,,,,,,,,,,,,,,,,,,,,,,,,,,,,,,149.1795373999994,150.46272319999844,148.36277500000142,149.1630065999998,left,0,1.36430190000101,149.1795373999994,None,148.36277500000142,None,001,1488,2019_Oct_14_1450,stroop short,3.1.5,60.23443240966173,
ĐỎ,RED,1,left,,,,,0,3,3,0,,,,,,,,,,,,,,,,,,,,,,,,,,,,,,,,,,,,,,,,,,,,,,,152.18015549999836,153.4626894999965,151.36278099999618,152.16278610000154,left,1,0.6069190000052913,152.18015549999836,None,151.36278099999618,None,001,1488,2019_Oct_14_1450,stroop short,3.1.5,60.23443240966173,
XANH LÁ,BLUE,1,right,,,,,0,4,4,1,,,,,,,,,,,,,,,,,,,,,,,,,,,,,,,,,,,,,,,,,,,,,,,155.17934049999894,156.4629405999949,154.36286660000042,155.1626569,down,0,0.9619967999969958,155.17934049999894,None,154.36286660000042,None,001,1488,2019_Oct_14_1450,stroop short,3.1.5,60.23443240966173,
ĐỎ,YELLOW,0,left,,,,,1,0,5,2,,,,,,,,,,,,,,,,,,,,,,,,,,,,,,,,,,,,,,,,,,,,,,,158.1792940000014,159.4626993999991,157.3627725999977,158.16271589999815,up,0,0.8796451999951387,158.1792940000014,None,157.3627725999977,None,001,1488,2019_Oct_14_1450,stroop short,3.1.5,60.23443240966173,
ĐỎ,RED,1,left,,,,,1,1,6,0,,,,,,,,,,,,,,,,,,,,,,,,,,,,,,,,,,,,,,,,,,,,,,,161.17935690000013,162.46260349999648,160.36274879999837,161.16287219999504,left,1,0.6017808999968111,161.17935690000013,None,160.36274879999837,None,001,1488,2019_Oct_14_1450,stroop short,3.1.5,60.23443240966173,
XANH LÁ,BLUE,1,right,,,,,1,2,7,1,,,,,,,,,,,,,,,,,,,,,,,,,,,,,,,,,,,,,,,,,,,,,,,164.1799658999953,165.46281309999904,163.36290839999856,164.16282900000078,down,0,1.3436432000016794,164.1799658999953,None,163.36290839999856,None,001,1488,2019_Oct_14_1450,stroop short,3.1.5,60.23443240966173,
VÀNG,RED,0,up,,,,,1,3,8,4,,,,,,,,,,,,,,,,,,,,,,,,,,,,,,,,,,,,,,,,,,,,,,,167.17935040000157,168.46273389999988,166.36280439999973,167.1630640000003,up,1,0.9970383000036236,167.17935040000157,None,166.36280439999973,None,001,1488,2019_Oct_14_1450,stroop short,3.1.5,60.23443240966173,
XANH DƯƠNG,GREEN,1,down,,,,,1,4,9,3,,,,,,,,,,,,,,,,,,,,,,,,,,,,,,,,,,,,,,,,,,,,,,,170.1794297000015,171.4626602999997,169.3627647999965,170.16277640000044,right,0,0.565049300006649,170.1794297000015,None,169.3627647999965,None,001,1488,2019_Oct_14_1450,stroop short,3.1.5,60.23443240966173,
XANH LÁ,BLUE,1,right,,,,,2,0,10,1,,,,,,,,,,,,,,,,,,,,,,,,,,,,,,,,,,,,,,,,,,,,,,,173.17915340000036,174.46250119999604,172.3629215999972,173.16351179999765,down,0,0.36115630000131205,173.17915340000036,None,172.3629215999972,None,001,1488,2019_Oct_14_1450,stroop short,3.1.5,60.23443240966173,
VÀNG,RED,0,up,,,,,2,1,11,4,,,,,,,,,,,,,,,,,,,,,,,,,,,,,,,,,,,,,,,,,,,,,,,176.17917769999622,177.46262519999436,175.3627178999959,176.16267449999577,up,1,0.9378212000010535,176.17917769999622,None,175.3627178999959,None,001,1488,2019_Oct_14_1450,stroop short,3.1.5,60.23443240966173,
ĐỎ,RED,1,left,,,,,2,2,12,0,,,,,,,,,,,,,,,,,,,,,,,,,,,,,,,,,,,,,,,,,,,,,,,179.17917730000045,180.46238349999476,178.36261379999632,179.16271920000145,left,1,0.6230740000028163,179.17917730000045,None,178.36261379999632,None,001,1488,2019_Oct_14_1450,stroop short,3.1.5,60.23443240966173,
ĐỎ,YELLOW,0,left,,,,,2,3,13,2,,,,,,,,,,,,,,,,,,,,,,,,,,,,,,,,,,,,,,,,,,,,,,,182.17939119999937,183.46248470000137,181.3625663999992,182.16252140000142,right,0,1.2000411999979406,182.17939119999937,None,181.3625663999992,None,001,1488,2019_Oct_14_1450,stroop short,3.1.5,60.23443240966173,
XANH DƯƠNG,GREEN,1,down,,,,,2,4,14,3,,,,,,,,,,,,,,,,,,,,,,,,,,,,,,,,,,,,,,,,,,,,,,,185.1796136999983,186.46238179999636,184.36324239999522,185.16264509999746,down,1,1.1531143999964115,185.1796136999983,None,184.36324239999522,None,001,1488,2019_Oct_14_1450,stroop short,3.1.5,60.23443240966173,
VÀNG,RED,0,up,,,,,3,0,15,4,,,,,,,,,,,,,,,,,,,,,,,,,,,,,,,,,,,,,,,,,,,,,,,188.1792459999997,189.46255749999546,187.36265029999777,188.16252689999965,right,0,1.1839197000008426,188.1792459999997,None,187.36265029999777,None,001,1488,2019_Oct_14_1450,stroop short,3.1.5,60.23443240966173,
XANH LÁ,BLUE,1,right,,,,,3,1,16,1,,,,,,,,,,,,,,,,,,,,,,,,,,,,,,,,,,,,,,,,,,,,,,,191.17919940000138,192.46268309999869,190.3633789000014,191.16271509999933,None,0,,191.17919940000138,None,190.3633789000014,None,001,1488,2019_Oct_14_1450,stroop short,3.1.5,60.23443240966173,
XANH DƯƠNG,GREEN,1,down,,,,,3,2,17,3,,,,,,,,,,,,,,,,,,,,,,,,,,,,,,,,,,,,,,,,,,,,,,,194.17954309999914,195.46256889999495,193.36334799999895,194.16263839999738,None,0,,194.17954309999914,None,193.36334799999895,None,001,1488,2019_Oct_14_1450,stroop short,3.1.5,60.23443240966173,
ĐỎ,RED,1,left,,,,,3,3,18,0,,,,,,,,,,,,,,,,,,,,,,,,,,,,,,,,,,,,,,,,,,,,,,,197.1792443000013,198.46251649999613,196.36266310000065,197.16268000000127,left,1,0.5722013999984483,197.1792443000013,None,196.36266310000065,None,001,1488,2019_Oct_14_1450,stroop short,3.1.5,60.23443240966173,
ĐỎ,YELLOW,0,left,,,,,3,4,19,2,,,,,,,,,,,,,,,,,,,,,,,,,,,,,,,,,,,,,,,,,,,,,,,200.1799422999975,201.46279729999515,199.36253209999995,200.16266869999527,up,0,0.7760133000047063,200.1799422999975,None,199.36253209999995,None,001,1488,2019_Oct_14_1450,stroop short,3.1.5,60.23443240966173,
ĐỎ,YELLOW,0,left,,,,,4,0,20,2,,,,,,,,,,,,,,,,,,,,,,,,,,,,,,,,,,,,,,,,,,,,,,,203.1798140999963,204.46255250000104,202.36319240000012,203.16255019999517,up,0,0.7743802999975742,203.1798140999963,None,202.36319240000012,None,001,1488,2019_Oct_14_1450,stroop short,3.1.5,60.23443240966173,
XANH LÁ,BLUE,1,right,,,,,4,1,21,1,,,,,,,,,,,,,,,,,,,,,,,,,,,,,,,,,,,,,,,,,,,,,,,206.1796084000016,207.46379709999746,205.36299609999696,206.16348469999502,right,1,1.314279099999112,206.1796084000016,None,205.36299609999696,None,001,1488,2019_Oct_14_1450,stroop short,3.1.5,60.23443240966173,
XANH DƯƠNG,GREEN,1,down,,,,,4,2,22,3,,,,,,,,,,,,,,,,,,,,,,,,,,,,,,,,,,,,,,,,,,,,,,,209.17973920000077,210.4625315000012,208.36360269999568,209.16258959999686,down,1,1.0034253999983775,209.17973920000077,None,208.36360269999568,None,001,1488,2019_Oct_14_1450,stroop short,3.1.5,60.23443240966173,
VÀNG,RED,0,up,,,,,4,3,23,4,,,,,,,,,,,,,,,,,,,,,,,,,,,,,,,,,,,,,,,,,,,,,,,212.17933970000013,213.46280139999726,211.36267119999684,212.1628137000007,up,1,1.006401200000255,212.17933970000013,None,211.36267119999684,None,001,1488,2019_Oct_14_1450,stroop short,3.1.5,60.23443240966173,
ĐỎ,RED,1,left,,,,,4,4,24,0,,,,,,,,,,,,,,,,,,,,,,,,,,,,,,,,,,,,,,,,,,,,,,,215.17977419999806,216.46309589999873,214.36274419999972,215.16279309999663,left,1,1.3357918000037898,215.17977419999806,None,214.36274419999972,None,001,1488,2019_Oct_14_1450,stroop short,3.1.5,60.23443240966173,
XANH DƯƠNG,GREEN,1,down,,,,,5,0,25,3,,,,,,,,,,,,,,,,,,,,,,,,,,,,,,,,,,,,,,,,,,,,,,,218.1793456000014,219.4627057999969,217.36562669999694,218.16271649999544,down,1,1.3951716000010492,218.1793456000014,None,217.36562669999694,None,001,1488,2019_Oct_14_1450,stroop short,3.1.5,60.23443240966173,
XANH LÁ,BLUE,1,right,,,,,5,1,26,1,,,,,,,,,,,,,,,,,,,,,,,,,,,,,,,,,,,,,,,,,,,,,,,221.1792370999974,222.46257350000087,220.3629518000016,221.16266460000043,right,1,1.0222406999964733,221.1792370999974,None,220.3629518000016,None,001,1488,2019_Oct_14_1450,stroop short,3.1.5,60.23443240966173,
ĐỎ,YELLOW,0,left,,,,,5,2,27,2,,,,,,,,,,,,,,,,,,,,,,,,,,,,,,,,,,,,,,,,,,,,,,,224.1793336999981,225.46256379999977,223.36269509999693,224.16271169999527,up,0,0.8606073999981163,224.1793336999981,None,223.36269509999693,None,001,1488,2019_Oct_14_1450,stroop short,3.1.5,60.23443240966173,
VÀNG,RED,0,up,,,,,5,3,28,4,,,,,,,,,,,,,,,,,,,,,,,,,,,,,,,,,,,,,,,,,,,,,,,227.17992930000037,228.46269010000105,226.36271000000124,227.16340439999476,left,0,1.0069229999935487,227.17992930000037,None,226.36271000000124,None,001,1488,2019_Oct_14_1450,stroop short,3.1.5,60.23443240966173,
ĐỎ,RED,1,left,,,,,5,4,29,0,,,,,,,,,,,,,,,,,,,,,,,,,,,,,,,,,,,,,,,,,,,,,,,230.17959559999872,231.46268079999572,229.3629834999956,230.16259400000126,left,1,0.8711438000027556,230.17959559999872,None,229.3629834999956,None,001,1488,2019_Oct_14_1450,stroop short,3.1.5,60.23443240966173,
,,,,,,,,,,,,,,,,,,,,,,,,,,,,,,,,,,,,,,,,,,,,,,,232.3628938999973,None,None,232.3628938999973,237.3634013999981,,,,,,,,,,,,,,,,,,001,1488,2019_Oct_14_1450,stroop short,3.1.5,60.23443240966173,
XANH LÁ,RED,0,right,,,,,,,,,0,0,0,1,,,,,,,,,,,,,,,,,,,,,,,,,,,,,,,,,,,,,232.3628938999973,None,261.3793866999986,None,232.3628938999973,None,263.1797546999951,264.4629012000005,262.3690041000009,263.16271779999806,right,1,1.073881700001948,263.1797546999951,None,262.3690041000009,None,001,1488,2019_Oct_14_1450,stroop short,3.1.5,60.23443240966173,
ĐỎ,RED,1,left,,,,,,,,,0,1,1,0,,,,,,,,,,,,,,,,,,,,,,,,,,,,,,,,,,,,,,,,,,,266.1794879000008,267.46282439999777,265.3626934999993,266.16281969999545,left,1,0.5594075999979395,266.1794879000008,None,265.3626934999993,None,001,1488,2019_Oct_14_1450,stroop short,3.1.5,60.23443240966173,
VÀNG,YELLOW,1,up,,,,,,,,,0,2,2,2,,,,,,,,,,,,,,,,,,,,,,,,,,,,,,,,,,,,,,,,,,,269.1792934999976,270.46294240000134,268.3626793000003,269.1628469999996,up,1,0.6479939999990165,269.1792934999976,None,268.3626793000003,None,001,1488,2019_Oct_14_1450,stroop short,3.1.5,60.23443240966173,
XANH DƯƠNG,BLUE,0,right,,,,,,,,,0,3,3,4,,,,,,,,,,,,,,,,,,,,,,,,,,,,,,,,,,,,,,,,,,,272.1797288000016,273.46333199999935,271.36349640000117,272.1627590999997,down,0,0.8168040000018664,272.1797288000016,None,271.36349640000117,None,001,1488,2019_Oct_14_1450,stroop short,3.1.5,60.23443240966173,
ĐỎ,RED,1,left,,,,,,,,,0,4,4,3,,,,,,,,,,,,,,,,,,,,,,,,,,,,,,,,,,,,,,,,,,,275.1793533999953,276.46280779999506,274.36276659999567,275.1626011999979,left,1,0.5505145999995875,275.1793533999953,None,274.36276659999567,None,001,1488,2019_Oct_14_1450,stroop short,3.1.5,60.23443240966173,
ĐỎ,RED,1,left,,,,,,,,,1,0,5,3,,,,,,,,,,,,,,,,,,,,,,,,,,,,,,,,,,,,,,,,,,,278.1797177999979,279.4630676000015,277.3627172999986,278.1630776999955,left,1,0.492579099998693,278.1797177999979,None,277.3627172999986,None,001,1488,2019_Oct_14_1450,stroop short,3.1.5,60.23443240966173,
VÀNG,YELLOW,1,up,,,,,,,,,1,1,6,2,,,,,,,,,,,,,,,,,,,,,,,,,,,,,,,,,,,,,,,,,,,281.17934819999937,282.4632316999996,280.36331390000123,281.16303389999666,up,1,1.0457376999984263,281.17934819999937,None,280.36331390000123,None,001,1488,2019_Oct_14_1450,stroop short,3.1.5,60.23443240966173,
XANH DƯƠNG,BLUE,0,right,,,,,,,,,1,2,7,4,,,,,,,,,,,,,,,,,,,,,,,,,,,,,,,,,,,,,,,,,,,284.1795224999951,285.46273089999886,283.36469139999826,284.1629348999995,down,0,0.9094933000014862,284.1795224999951,None,283.36469139999826,None,001,1488,2019_Oct_14_1450,stroop short,3.1.5,60.23443240966173,
XANH LÁ,RED,0,right,,,,,,,,,1,3,8,1,,,,,,,,,,,,,,,,,,,,,,,,,,,,,,,,,,,,,,,,,,,287.1793647000013,288.4629214000015,286.3630645999947,287.1628389999969,right,1,0.8090142000000924,287.1793647000013,None,286.3630645999947,None,001,1488,2019_Oct_14_1450,stroop short,3.1.5,60.23443240966173,
ĐỎ,RED,1,left,,,,,,,,,1,4,9,0,,,,,,,,,,,,,,,,,,,,,,,,,,,,,,,,,,,,,,,,,,,290.17948229999456,291.46320900000137,289.36317759999656,290.16291269999783,left,1,0.5985360000049695,290.17948229999456,None,289.36317759999656,None,001,1488,2019_Oct_14_1450,stroop short,3.1.5,60.23443240966173,
VÀNG,YELLOW,1,up,,,,,,,,,2,0,10,2,,,,,,,,,,,,,,,,,,,,,,,,,,,,,,,,,,,,,,,,,,,293.1798658999978,294.4629765999998,292.36279139999533,293.16283239999757,up,1,0.6260658999963198,293.1798658999978,None,292.36279139999533,None,001,1488,2019_Oct_14_1450,stroop short,3.1.5,60.23443240966173,
XANH DƯƠNG,BLUE,0,right,,,,,,,,,2,1,11,4,,,,,,,,,,,,,,,,,,,,,,,,,,,,,,,,,,,,,,,,,,,296.17936069999996,297.46276149999903,295.3639916999964,296.16278919999604,down,0,1.0742649999956484,296.17936069999996,None,295.3639916999964,None,001,1488,2019_Oct_14_1450,stroop short,3.1.5,60.23443240966173,
ĐỎ,RED,1,left,,,,,,,,,2,2,12,0,,,,,,,,,,,,,,,,,,,,,,,,,,,,,,,,,,,,,,,,,,,299.179160599997,300.4629117000004,298.36299660000077,299.1626705999952,left,1,0.5186812999963877,299.179160599997,None,298.36299660000077,None,001,1488,2019_Oct_14_1450,stroop short,3.1.5,60.23443240966173,
XANH LÁ,RED,0,right,,,,,,,,,2,3,13,1,,,,,,,,,,,,,,,,,,,,,,,,,,,,,,,,,,,,,,,,,,,302.1804086999982,303.4633862999981,301.36368989999755,302.162883099998,left,0,1.3950331000014558,302.1804086999982,None,301.36368989999755,None,001,1488,2019_Oct_14_1450,stroop short,3.1.5,60.23443240966173,
ĐỎ,RED,1,left,,,,,,,,,2,4,14,3,,,,,,,,,,,,,,,,,,,,,,,,,,,,,,,,,,,,,,,,,,,305.1793671999985,306.4633618000007,304.3628460999971,305.1627004999973,left,1,0.541151199999149,305.1793671999985,None,304.3628460999971,None,001,1488,2019_Oct_14_1450,stroop short,3.1.5,60.23443240966173,
ĐỎ,RED,1,left,,,,,,,,,3,0,15,0,,,,,,,,,,,,,,,,,,,,,,,,,,,,,,,,,,,,,,,,,,,308.1793580999947,309.4632990999962,307.36310539999977,308.1627143000005,left,1,0.46455799999966985,308.1793580999947,None,307.36310539999977,None,001,1488,2019_Oct_14_1450,stroop short,3.1.5,60.23443240966173,
ĐỎ,RED,1,left,,,,,,,,,3,1,16,3,,,,,,,,,,,,,,,,,,,,,,,,,,,,,,,,,,,,,,,,,,,311.17972129999544,312.4630324999962,310.36279349999677,311.16318269999465,left,1,0.43819909999729134,311.17972129999544,None,310.36279349999677,None,001,1488,2019_Oct_14_1450,stroop short,3.1.5,60.23443240966173,
XANH DƯƠNG,BLUE,0,right,,,,,,,,,3,2,17,4,,,,,,,,,,,,,,,,,,,,,,,,,,,,,,,,,,,,,,,,,,,314.18052819999866,315.46319519999815,313.3643385999967,314.1628289,down,0,0.7882144000031985,314.18052819999866,None,313.3643385999967,None,001,1488,2019_Oct_14_1450,stroop short,3.1.5,60.23443240966173,
VÀNG,YELLOW,1,up,,,,,,,,,3,3,18,2,,,,,,,,,,,,,,,,,,,,,,,,,,,,,,,,,,,,,,,,,,,317.1793875000003,318.46282699999574,316.3631830999948,317.1627066000001,right,0,1.139037000000826,317.1793875000003,None,316.3631830999948,None,001,1488,2019_Oct_14_1450,stroop short,3.1.5,60.23443240966173,
XANH LÁ,RED,0,right,,,,,,,,,3,4,19,1,,,,,,,,,,,,,,,,,,,,,,,,,,,,,,,,,,,,,,,,,,,320.179513199997,321.46322569999757,319.3630534999975,320.16303219999827,left,0,1.188118800004304,320.179513199997,None,319.3630534999975,None,001,1488,2019_Oct_14_1450,stroop short,3.1.5,60.23443240966173,
ĐỎ,RED,1,left,,,,,,,,,4,0,20,3,,,,,,,,,,,,,,,,,,,,,,,,,,,,,,,,,,,,,,,,,,,323.1797491999969,324.4631359999985,322.36305580000044,323.1627351999996,left,1,0.4751290999993216,323.1797491999969,None,322.36305580000044,None,001,1488,2019_Oct_14_1450,stroop short,3.1.5,60.23443240966173,
ĐỎ,RED,1,left,,,,,,,,,4,1,21,0,,,,,,,,,,,,,,,,,,,,,,,,,,,,,,,,,,,,,,,,,,,326.1808402999959,327.46289350000006,325.36285629999475,326.16293149999547,left,1,0.382944500001031,326.1808402999959,None,325.36285629999475,None,001,1488,2019_Oct_14_1450,stroop short,3.1.5,60.23443240966173,
XANH LÁ,RED,0,right,,,,,,,,,4,2,22,1,,,,,,,,,,,,,,,,,,,,,,,,,,,,,,,,,,,,,,,,,,,329.17939209999895,330.4627980000005,328.3630831999981,329.16290879999724,left,0,0.4284373999980744,329.17939209999895,None,328.3630831999981,None,001,1488,2019_Oct_14_1450,stroop short,3.1.5,60.23443240966173,
VÀNG,YELLOW,1,up,,,,,,,,,4,3,23,2,,,,,,,,,,,,,,,,,,,,,,,,,,,,,,,,,,,,,,,,,,,332.1792400999984,333.46300459999475,331.36311040000146,332.1630296000003,up,1,0.9719951000006404,332.1792400999984,None,331.36311040000146,None,001,1488,2019_Oct_14_1450,stroop short,3.1.5,60.23443240966173,
XANH DƯƠNG,BLUE,0,right,,,,,,,,,4,4,24,4,,,,,,,,,,,,,,,,,,,,,,,,,,,,,,,,,,,,,,,,,,,335.1795246999973,336.4628542999999,334.36379840000154,335.1627756999951,down,0,0.8867299999983516,335.1795246999973,None,334.36379840000154,None,001,1488,2019_Oct_14_1450,stroop short,3.1.5,60.23443240966173,
XANH DƯƠNG,BLUE,0,right,,,,,,,,,5,0,25,4,,,,,,,,,,,,,,,,,,,,,,,,,,,,,,,,,,,,,,,,,,,338.1795847999965,339.46288549999736,337.3630241999999,338.16281299999537,down,0,0.6620781999954488,338.1795847999965,None,337.3630241999999,None,001,1488,2019_Oct_14_1450,stroop short,3.1.5,60.23443240966173,
ĐỎ,RED,1,left,,,,,,,,,5,1,26,0,,,,,,,,,,,,,,,,,,,,,,,,,,,,,,,,,,,,,,,,,,,341.17979280000145,342.4629705999978,340.3630572999973,341.16279909999867,left,1,0.4976833000037004,341.17979280000145,None,340.3630572999973,None,001,1488,2019_Oct_14_1450,stroop short,3.1.5,60.23443240966173,
ĐỎ,RED,1,left,,,,,,,,,5,2,27,3,,,,,,,,,,,,,,,,,,,,,,,,,,,,,,,,,,,,,,,,,,,344.1796914000006,345.46299870000075,343.3628901999982,344.1630309999964,left,1,0.4467148999974597,344.1796914000006,None,343.3628901999982,None,001,1488,2019_Oct_14_1450,stroop short,3.1.5,60.23443240966173,
VÀNG,YELLOW,1,up,,,,,,,,,5,3,28,2,,,,,,,,,,,,,,,,,,,,,,,,,,,,,,,,,,,,,,,,,,,347.1796106999973,348.46281530000124,346.36367099999916,347.1628911000007,up,1,0.926600699996925,347.1796106999973,None,346.36367099999916,None,001,1488,2019_Oct_14_1450,stroop short,3.1.5,60.23443240966173,
XANH LÁ,RED,0,right,,,,,,,,,5,4,29,1,,,,,,,,,,,,,,,,,,,,,,,,,,,,,,,,,,,,,,,,,,,350.1794353000005,351.4631250999955,349.36317009999766,350.1627958999961,left,0,1.0681498999983887,350.1794353000005,None,349.36317009999766,None,001,1488,2019_Oct_14_1450,stroop short,3.1.5,60.23443240966173,
,,,,,,,,,,,,,,,,,,,,,,,,,,,,,,,,,,,,,,,,,,,,,,,352.36289509999915,None,None,352.36289509999915,357.36280709999846,,,,,,,,,,,,,,,,,,001,1488,2019_Oct_14_1450,stroop short,3.1.5,60.23443240966173,
,,,,,,,,,,,,,,,,,,,,,,,,,,,,,,,,,,,,,,,,,,,,,,,,,,,,352.36289509999915,353.3630822999985,381.3796530999971,None,352.36289509999915,None,,,,,,,,,,,,,,,,,,
